{
  "id": "communication-notification-admit-01",
  "entry": [
    {
      "fullUrl": "urn:uuid:3852d906-a361-11e9-86cd-a4d18ccf5172",
      "resource": {
        "meta": {
          "profile": [
            "http://hl7.org/fhir/us/core/StructureDefinition/us-core-patient"
          ]
        },
        "extension": [
          {
            "extension": [
              {
                "url": "ombCategory",
                "valueCoding": {
                  "code": "2106-3",
                  "display": "White",
                  "system": "urn:oid:2.16.840.1.113883.6.238"
                }
              },
              {
                "url": "ombCategory",
                "valueCoding": {
                  "code": "1002-5",
                  "display": "American Indian or Alaska Native",
                  "system": "urn:oid:2.16.840.1.113883.6.238"
                }
              },
              {
                "url": "ombCategory",
                "valueCoding": {
                  "code": "2028-9",
                  "display": "Asian",
                  "system": "urn:oid:2.16.840.1.113883.6.238"
                }
              },
              {
                "url": "detailed",
                "valueCoding": {
                  "code": "1586-7",
                  "display": "Shoshone",
                  "system": "urn:oid:2.16.840.1.113883.6.238"
                }
              },
              {
                "url": "detailed",
                "valueCoding": {
                  "code": "2036-2",
                  "display": "Filipino",
                  "system": "urn:oid:2.16.840.1.113883.6.238"
                }
              },
              {
                "url": "text",
                "valueString": "Mixed"
              }
            ],
            "url": "http://hl7.org/fhir/us/core/StructureDefinition/us-core-race"
          },
          {
            "extension": [
              {
                "url": "ombCategory",
                "valueCoding": {
                  "code": "2135-2",
                  "display": "Hispanic or Latino",
                  "system": "urn:oid:2.16.840.1.113883.6.238"
                }
              },
              {
                "url": "detailed",
                "valueCoding": {
                  "code": "2184-0",
                  "display": "Dominican",
                  "system": "urn:oid:2.16.840.1.113883.6.238"
                }
              },
              {
                "url": "detailed",
                "valueCoding": {
                  "code": "2148-5",
                  "display": "Mexican",
                  "system": "urn:oid:2.16.840.1.113883.6.238"
                }
              },
              {
                "url": "text",
                "valueString": "Hispanic or Latino"
              }
            ],
            "url": "http://hl7.org/fhir/us/core/StructureDefinition/us-core-ethnicity"
          },
          {
            "url": "http://hl7.org/fhir/us/core/StructureDefinition/us-core-birthsex",
            "valueCode": "F"
          }
        ],
        "active": true,
        "address": [
          {
            "city": "Mounds",
            "country": "US",
            "line": [
              "49 Meadow St"
            ],
            "postalCode": "74047",
            "state": "OK"
          }
        ],
        "birthDate": "2007-02-20",
        "gender": "female",
        "identifier": [
          {
            "system": "http://hospital.smarthealthit.org",
            "type": {
              "coding": [
                {
                  "code": "MR",
                  "display": "Medical Record Number",
                  "system": "http://terminology.hl7.org/CodeSystem/v2-0203"
                }
              ],
              "text": "Medical Record Number"
            },
            "use": "usual",
            "value": "1032702"
          }
        ],
        "name": [
          {
            "family": "Shaw",
            "given": [
              "Amy",
              "V."
            ]
          }
        ],
        "telecom": [
          {
            "system": "phone",
            "use": "home",
            "value": "555-555-5555"
          },
          {
            "system": "email",
            "value": "amy.shaw@example.com"
          }
        ],
        "resourceType": "Patient"
      }
    },
    {
      "fullUrl": "urn:uuid:3857dfb4-a361-11e9-86cd-a4d18ccf5172",
      "resource": {
        "meta": {
          "lastUpdated": "2017-05-26T11:56:57.250-04:00",
          "profile": [
            "http://hl7.org/fhir/us/core/StructureDefinition/us-core-encounter"
          ]
        },
        "class": {
          "code": "AMB",
          "display": "ambulatory",
          "system": "http://terminology.hl7.org/CodeSystem/v3-ActCode"
        },
        "location": [
          {
            "location": {
              "reference": "Location/hl7east"
            }
          }
        ],
        "period": {
          "end": "2015-11-01T18:00:14-05:00",
          "start": "2015-11-01T17:00:14-05:00"
        },
        "status": "finished",
        "subject": {
          "reference": "urn:uuid:3852d906-a361-11e9-86cd-a4d18ccf5172"
        },
        "type": [
          {
            "coding": [
              {
                "code": "99201",
                "system": "http://www.ama-assn.org/go/cpt"
              }
            ],
            "text": "Office Visit"
          }
        ],
        "resourceType": "Encounter"
      }
    },
    {
      "fullUrl": "urn:uuid:385a65e0-a361-11e9-86cd-a4d18ccf5172",
      "resource": {
        "meta": {
          "profile": [
            "http://hl7.org/fhir/us/core/StructureDefinition/us-core-condition"
          ]
        },
        "category": [
          {
            "coding": [
              {
                "code": "problem-list-item",
                "display": "Problem List Item",
                "system": "http://terminology.hl7.org/CodeSystem/condition-category"
              }
            ],
            "text": "Problem"
          }
        ],
        "clinicalStatus": {
          "coding": [
            {
              "code": "active",
              "display": "Active",
              "system": "http://terminology.hl7.org/CodeSystem/condition-clinical"
            }
          ],
          "text": "Active"
        },
        "code": {
          "coding": [
            {
              "code": "442311008",
              "display": "Liveborn born in hospital",
              "system": "http://snomed.info/sct"
            }
          ],
          "text": "Single liveborn, born in hospital"
        },
        "onsetDateTime": "2016-08-10",
        "subject": {
          "display": "Amy V. Shaw",
          "reference": "urn:uuid:3852d906-a361-11e9-86cd-a4d18ccf5172"
        },
        "verificationStatus": {
          "coding": [
            {
              "code": "confirmed",
              "display": "Confirmed",
              "system": "http://terminology.hl7.org/CodeSystem/condition-ver-status"
            }
          ],
          "text": "Confirmed"
        },
        "resourceType": "Condition"
      }
    },
    {
      "fullUrl": "urn:uuid:385bceb2-a361-11e9-86cd-a4d18ccf5172",
      "resource": {
        "meta": {
          "profile": [
            "http://hl7.org/fhir/us/davinci-notifications/StructureDefinition/notifications-communication"
          ]
        },
        "about": [
          {
            "reference": "Coverage/example-1",
            "type": "Coverage"
          }
        ],
        "category": [
          {
            "coding": [
              {
                "code": "notification",
                "system": "http://terminology.hl7.org/CodeSystem/communication-category"
              }
            ],
            "text": "Notification"
          }
        ],
        "encounter": {
          "reference": "urn:uuid:3857dfb4-a361-11e9-86cd-a4d18ccf5172"
        },
        "identifier": [
          {
            "system": "urn:oid:1.3.4.5.6.7",
            "value": "2345678901"
          }
        ],
        "payload": [
          {
            "contentString": "Admit to xyz"
          },
          {
            "contentReference": {
              "reference": "urn:uuid:3857dfb4-a361-11e9-86cd-a4d18ccf5172"
            }
          },
          {
            "contentReference": {
              "reference": "urn:uuid:385a65e0-a361-11e9-86cd-a4d18ccf5172"
            }
          }
        ],
        "priority": "routine",
        "recipient": [
          {
            "reference": "PractitionerRole/example"
          }
        ],
        "sender": {
          "reference": "Organization/example-2"
        },
        "sent": "2019-07-04T18:01:10-08:00",
        "status": "completed",
        "subject": {
          "reference": "urn:uuid:3852d906-a361-11e9-86cd-a4d18ccf5172"
        },
        "topic": {
          "coding": [
            {
              "code": "notification-admit-inpatient",
              "system": "http://hl7.org/fhir/us/davinci-notifications/CodeSystem/notification-event"
            }
          ],
          "text": "Notification Admit Inpatient"
        },
        "resourceType": "Communication"
      }
    }
  ],
  "type": "collection",
  "resourceType": "Bundle"
}
