<?xml version="1.0" encoding="UTF-8"?>
<Parameters xmlns="http://hl7.org/fhir" xmlns:xsi="http://www.w3.org/2001/XMLSchema-instance" xsi:schemaLocation="http://hl7.org/fhir file:///C:/Users/Eric/Documents/HL7/FHIR/BUILD_EDIT_FILES/fhir-all-xsd-CURRENT/valueset.xsd">
<id value="admit-1"/>
	<parameter>
		<name value="alert"/>
		<part>
			<name value="alert-endpoint"/>
			<resource>
				<Endpoint>
					<status value="active"/>
					<connectionType>
						<system value="http://terminology.hl7.org/CodeSystem/endpoint-connection-type"/>
						<code value="hl7-fhir-rest"/>
					</connectionType>
					<name value="Acme Hospital EHR FHIR R4 Server"/>
					<payloadType>
						<text value="n/a"/>
					</payloadType>
					<!-- the base url for the fhir server -->
					<address value="https://fhir-ehr.acme/r4/1234/"/>
					<header value="Authorization: Bearer eyJraWQiOiIyMDE5LTA3LTE3VDIzOjA1OjQ4LjY3NC5lYyIsInR5cCI6IkpXVCIsImFsZyI6IkVTMjU2In0..weCcKK-zziKrsXlUKHunHTkbUJOZTV0AEzteZeaYdGjhF9581LlBCCp4EnaaUIQbkaWkQ-btukZ_GLw7-cy2Ag"/>
				</Endpoint>
			</resource>
		</part>
		<part>
			<name value="alert-bundle"/>
			<resource>
				<Bundle>
					<id value="admit-01"/>
					<type value="transaction"/>
					<entry>
						<fullUrl value="urn:uuid:3852d906-a361-11e9-86cd-a4d18ccf5172"/>
						<resource>
							<Patient>
								<meta>
									<profile value="http://hl7.org/fhir/us/core/StructureDefinition/us-core-patient"/>
								</meta>
								<extension url="http://hl7.org/fhir/us/core/StructureDefinition/us-core-race">
									<extension url="ombCategory">
										<valueCoding>
											<system value="urn:oid:2.16.840.1.113883.6.238"/>
											<code value="2106-3"/>
											<display value="White"/>
										</valueCoding>
									</extension>
									<extension url="ombCategory">
										<valueCoding>
											<system value="urn:oid:2.16.840.1.113883.6.238"/>
											<code value="1002-5"/>
											<display value="American Indian or Alaska Native"/>
										</valueCoding>
									</extension>
									<extension url="ombCategory">
										<valueCoding>
											<system value="urn:oid:2.16.840.1.113883.6.238"/>
											<code value="2028-9"/>
											<display value="Asian"/>
										</valueCoding>
									</extension>
									<extension url="detailed">
										<valueCoding>
											<system value="urn:oid:2.16.840.1.113883.6.238"/>
											<code value="1586-7"/>
											<display value="Shoshone"/>
										</valueCoding>
									</extension>
									<extension url="detailed">
										<valueCoding>
											<system value="urn:oid:2.16.840.1.113883.6.238"/>
											<code value="2036-2"/>
											<display value="Filipino"/>
										</valueCoding>
									</extension>
									<extension url="text">
										<valueString value="Mixed"/>
									</extension>
								</extension>
								<extension url="http://hl7.org/fhir/us/core/StructureDefinition/us-core-ethnicity">
									<extension url="ombCategory">
										<valueCoding>
											<system value="urn:oid:2.16.840.1.113883.6.238"/>
											<code value="2135-2"/>
											<display value="Hispanic or Latino"/>
										</valueCoding>
									</extension>
									<extension url="detailed">
										<valueCoding>
											<system value="urn:oid:2.16.840.1.113883.6.238"/>
											<code value="2184-0"/>
											<display value="Dominican"/>
										</valueCoding>
									</extension>
									<extension url="detailed">
										<valueCoding>
											<system value="urn:oid:2.16.840.1.113883.6.238"/>
											<code value="2148-5"/>
											<display value="Mexican"/>
										</valueCoding>
									</extension>
									<extension url="text">
										<valueString value="Hispanic or Latino"/>
									</extension>
								</extension>
								<extension url="http://hl7.org/fhir/us/core/StructureDefinition/us-core-birthsex">
									<valueCode value="F"/>
								</extension>
								<identifier>
									<use value="usual"/>
									<type>
										<coding>
											<system value="http://terminology.hl7.org/CodeSystem/v2-0203"/>
											<code value="MR"/>
											<display value="Medical Record Number"/>
										</coding>
										<text value="Medical Record Number"/>
									</type>
									<system value="http://hospital.smarthealthit.org"/>
									<value value="1032702"/>
								</identifier>
								<active value="true"/>
								<name>
									<family value="Shaw"/>
									<given value="Amy"/>
									<given value="V."/>
								</name>
								<telecom>
									<system value="phone"/>
									<value value="555-555-5555"/>
									<use value="home"/>
								</telecom>
								<telecom>
									<system value="email"/>
									<value value="amy.shaw@example.com"/>
								</telecom>
								<gender value="female"/>
								<birthDate value="2007-02-20"/>
								<address>
									<line value="49 Meadow St"/>
									<city value="Mounds"/>
									<state value="OK"/>
									<postalCode value="74047"/>
									<country value="US"/>
								</address>
							</Patient>
						</resource>
						<request>
							<method value="POST"/>
							<url value="Patient"/>
						</request>
					</entry>
					<entry>
						<fullUrl value="urn:uuid:3857dfb4-a361-11e9-86cd-a4d18ccf5172"/>
						<resource>
							<Encounter>
								<meta>
									<lastUpdated value="2017-05-26T11:56:57.250-04:00"/>
									<profile value="http://hl7.org/fhir/us/core/StructureDefinition/us-core-encounter"/>
								</meta>
								<status value="finished"/>
								<class>
									<system value="http://terminology.hl7.org/CodeSystem/v3-ActCode"/>
									<code value="AMB"/>
									<display value="ambulatory"/>
								</class>
								<type>
									<coding>
										<system value="http://www.ama-assn.org/go/cpt"/>
										<code value="99201"/>
									</coding>
									<text value="Office Visit"/>
								</type>
								<subject>
									<reference value="urn:uuid:3852d906-a361-11e9-86cd-a4d18ccf5172"/>
								</subject>
								<period>
									<start value="2015-11-01T17:00:14-05:00"/>
									<end value="2015-11-01T18:00:14-05:00"/>
								</period>
								<location>
									<location>
										<reference value="Location/hl7east"/>
									</location>
								</location>
							</Encounter>
						</resource>
						<request>
							<method value="POST"/>
							<url value="Encounter"/>
						</request>
					</entry>
					<entry>
						<fullUrl value="urn:uuid:385a65e0-a361-11e9-86cd-a4d18ccf5172"/>
						<resource>
							<Condition>
								<meta>
									<profile value="http://hl7.org/fhir/us/core/StructureDefinition/us-core-condition"/>
								</meta>
								<clinicalStatus>
									<coding>
										<system value="http://terminology.hl7.org/CodeSystem/condition-clinical"/>
										<code value="active"/>
										<display value="Active"/>
									</coding>
									<text value="Active"/>
								</clinicalStatus>
								<verificationStatus>
									<coding>
										<system value="http://terminology.hl7.org/CodeSystem/condition-ver-status"/>
										<code value="confirmed"/>
										<display value="Confirmed"/>
									</coding>
									<text value="Confirmed"/>
								</verificationStatus>
								<category>
									<coding>
										<system value="http://terminology.hl7.org/CodeSystem/condition-category"/>
										<code value="problem-list-item"/>
										<display value="Problem List Item"/>
									</coding>
									<text value="Problem"/>
								</category>
								<code>
									<coding>
										<system value="http://snomed.info/sct"/>
										<code value="442311008"/>
										<display value="Liveborn born in hospital"/>
									</coding>
									<text value="Single liveborn, born in hospital"/>
								</code>
								<subject>
									<reference value="urn:uuid:3852d906-a361-11e9-86cd-a4d18ccf5172"/>
									<display value="Amy V. Shaw"/>
								</subject>
								<onsetDateTime value="2016-08-10"/>
							</Condition>
						</resource>
						<request>
							<method value="POST"/>
							<url value="Condition"/>
						</request>
					</entry>
					<entry>
						<fullUrl value="urn:uuid:385bceb2-a361-11e9-86cd-a4d18ccf5172"/>
						<resource>
							<Communication>
								<meta>
									<profile value="http://hl7.org/fhir/us/davinci-alerts/StructureDefinition/alerts-communication"/>
								</meta>
								<identifier>
									<system value="urn:oid:1.3.4.5.6.7"/>
									<value value="2345678901"/>
								</identifier>
								<status value="completed"/>
								<category>
									<coding>
										<system value="http://terminology.hl7.org/CodeSystem/communication-category"/>
										<code value="alert"/>
									</coding>
									<text value="Alert"/>
								</category>
								<priority value="routine"/>
								<subject>
									<reference value="urn:uuid:3852d906-a361-11e9-86cd-a4d18ccf5172"/>
								</subject>
								<topic>
									<coding>
										<system value="http://hl7.org/fhir/us/davinci-alerts/CodeSystem/communication-topic"/>
										<code value="alert-admit-inpatient"/>
									</coding>
									<text value="Alert Admit Inpatient"/>
								</topic>
								<about>
									<reference value="Coverage/example-1"/>
									<type value="Coverage"/>
								</about>
								<encounter>
									<reference value="urn:uuid:3857dfb4-a361-11e9-86cd-a4d18ccf5172"/>
								</encounter>
								<sent value="2019-07-04T18:01:10-08:00"/>
								<recipient>
									<reference value="PractitionerRole/example"/>
								</recipient>
								<sender>
									<reference value="Organization/example-2"/>
								</sender>
								<payload>
									<contentString value="Admit to xyz"/>
								</payload>
								<payload>
									<contentReference>
										<reference value="urn:uuid:3857dfb4-a361-11e9-86cd-a4d18ccf5172"/>
									</contentReference>
								</payload>
								<payload>
									<contentReference>
										<reference value="urn:uuid:385a65e0-a361-11e9-86cd-a4d18ccf5172"/>
									</contentReference>
								</payload>
							</Communication>
						</resource>
						<request>
							<method value="POST"/>
							<url value="Communication"/>
						</request>
					</entry>
				</Bundle>
			</resource>
		</part>
	</parameter>
</Parameters>
