{"resourceType": "Bundle", "entry": [{"resource": {"status": "in-progress", "participant": [{"individual": {"display": "Dr. Janeth814 Jakubowski832", "reference": "Practitioner/0000016f-57cb-cdac-0000-00000000014a"}}], "hospitalization": {"admitSource": {"text": "Transfer", "coding": [{"code": "transfer", "system": "http://terminology.hl7.org/CodeSystem/admit-source", "display": "Transfer"}]}}, "resourceType": "Encounter", "serviceProvider": {"display": "HOLY FAMILY HOSPITAL", "reference": "Organization/a9f20dc1-5147-3789-bcef-bbecb41c5983"}, "period": {"start": "2018-10-21T21:22:15-07:00", "end": "2018-10-21T22:22:15-07:00"}, "class": {"code": "IMP", "system": "http://terminology.hl7.org/CodeSystem/v3-ActCode"}, "meta": {"profile": ["http://hl7.org/fhir/us/core/StructureDefinition/us-core-encounter"]}, "location": [{"location": {"display": "HOLY FAMILY HOSPITAL", "reference": "Location/09188b81-0d1d-453c-b0fa-203ef88c794c"}}], "identifier": [{"system": "http://example.org", "value": "Elden718Halvorson12420181021T2122150700"}], "type": [{"text": "Examplotomy Encounter", "coding": [{"code": "1234", "display": "Examplotomy Encounter", "system": "http://example.org/fhir/encounters"}]}], "id": "5fe62cd5-bfcf-4d3b-a1e9-80d6f75d6f82", "subject": {"display": "Mr. Elden718 Halvorson124", "reference": "Patient/06e1f0dd-5fbe-4480-9bb4-6b54ec02d31b"}}, "request": {"url": "Encounter/5fe62cd5-bfcf-4d3b-a1e9-80d6f75d6f82", "method": "PUT"}, "fullUrl": "urn:uuid:5fe62cd5-bfcf-4d3b-a1e9-80d6f75d6f82"}, {"resource": {"category": [{"coding": [{"code": "encounter-diagnosis", "display": "Encounter Diagnosis", "system": "http://terminology.hl7.org/CodeSystem/condition-category"}]}], "verificationStatus": {"coding": [{"code": "confirmed", "system": "http://terminology.hl7.org/CodeSystem/condition-ver-status"}]}, "code": {"text": "Examplitis", "coding": [{"code": "1234", "display": "Examplitis", "system": "http://example.org/fhir/conditions"}]}, "resourceType": "Condition", "onsetDateTime": "2018-10-21T21:22:15-07:00", "clinicalStatus": {"coding": [{"code": "active", "system": "http://terminology.hl7.org/CodeSystem/condition-clinical"}]}, "meta": {"profile": ["http://hl7.org/fhir/us/core/StructureDefinition/us-core-condition"]}, "recordedDate": "2018-10-21T21:22:15-07:00", "id": "4ac41715-fcbd-421c-8796-9b2c9706dd3f", "encounter": {"reference": "urn:uuid:5fe62cd5-bfcf-4d3b-a1e9-80d6f75d6f82"}, "subject": {"reference": "Patient/06e1f0dd-5fbe-4480-9bb4-6b54ec02d31b"}}, "request": {"url": "Condition/4ac41715-fcbd-421c-8796-9b2c9706dd3f", "method": "PUT"}, "fullUrl": "urn:uuid:4ac41715-fcbd-421c-8796-9b2c9706dd3f"}, {"resource": {"status": "in-progress", "participant": [{"individual": {"display": "Dr. Tommy814 Schmeler639", "reference": "Practitioner/0000016f-57cb-cdac-0000-0000000000dc"}}], "hospitalization": {"admitSource": {"text": "Transfer", "coding": [{"code": "transfer", "system": "http://terminology.hl7.org/CodeSystem/admit-source", "display": "Transfer"}]}}, "resourceType": "Encounter", "serviceProvider": {"display": "BETH ISRAEL DEACONESS HOSPITAL - PLYMOUTH", "reference": "Organization/b1ddf812-1fdd-3adf-b1d5-32cc8bd07ebb"}, "period": {"start": "2018-02-17T15:07:39-08:00", "end": "2018-02-17T16:07:39-08:00"}, "class": {"code": "IMP", "system": "http://terminology.hl7.org/CodeSystem/v3-ActCode"}, "meta": {"profile": ["http://hl7.org/fhir/us/core/StructureDefinition/us-core-encounter"]}, "location": [{"location": {"display": "BETH ISRAEL DEACONESS HOSPITAL - PLYMOUTH", "reference": "Location/09178b24-9340-47ec-90b2-1aac03248cd5"}}], "identifier": [{"system": "http://example.org", "value": "Garland107Conn18820180217T1507390800"}], "type": [{"text": "Examplotomy Encounter", "coding": [{"code": "1234", "display": "Examplotomy Encounter", "system": "http://example.org/fhir/encounters"}]}], "id": "542f9e32-4309-4277-81ce-12419f0d1294", "subject": {"display": "Mr. Garland107 Conn188", "reference": "Patient/b1cf5f57-b061-4b7f-aa9d-6283a121694b"}}, "request": {"url": "Encounter/542f9e32-4309-4277-81ce-12419f0d1294", "method": "PUT"}, "fullUrl": "urn:uuid:542f9e32-4309-4277-81ce-12419f0d1294"}, {"resource": {"category": [{"coding": [{"code": "encounter-diagnosis", "display": "Encounter Diagnosis", "system": "http://terminology.hl7.org/CodeSystem/condition-category"}]}], "verificationStatus": {"coding": [{"code": "confirmed", "system": "http://terminology.hl7.org/CodeSystem/condition-ver-status"}]}, "code": {"text": "Examplitis", "coding": [{"code": "1234", "display": "Examplitis", "system": "http://example.org/fhir/conditions"}]}, "resourceType": "Condition", "onsetDateTime": "2018-02-17T15:07:39-08:00", "clinicalStatus": {"coding": [{"code": "active", "system": "http://terminology.hl7.org/CodeSystem/condition-clinical"}]}, "meta": {"profile": ["http://hl7.org/fhir/us/core/StructureDefinition/us-core-condition"]}, "recordedDate": "2018-02-17T15:07:39-08:00", "id": "64620614-f540-46d2-9bdb-af52c8528fdc", "encounter": {"reference": "urn:uuid:542f9e32-4309-4277-81ce-12419f0d1294"}, "subject": {"reference": "Patient/b1cf5f57-b061-4b7f-aa9d-6283a121694b"}}, "request": {"url": "Condition/64620614-f540-46d2-9bdb-af52c8528fdc", "method": "PUT"}, "fullUrl": "urn:uuid:64620614-f540-46d2-9bdb-af52c8528fdc"}, {"resource": {"status": "in-progress", "participant": [{"individual": {"display": "Dr. Raina861 Willms744", "reference": "Practitioner/0000016f-57cb-cdac-0000-00000000019a"}}], "hospitalization": {"admitSource": {"text": "Transfer", "coding": [{"code": "transfer", "system": "http://terminology.hl7.org/CodeSystem/admit-source", "display": "Transfer"}]}}, "resourceType": "Encounter", "serviceProvider": {"display": "SOUTH SHORE HOSPITAL", "reference": "Organization/db0acede-4abe-3c01-8d03-5c68a190d8c7"}, "period": {"start": "2019-07-06T18:47:44-07:00", "end": "2019-07-06T19:47:44-07:00"}, "class": {"code": "IMP", "system": "http://terminology.hl7.org/CodeSystem/v3-ActCode"}, "meta": {"profile": ["http://hl7.org/fhir/us/core/StructureDefinition/us-core-encounter"]}, "location": [{"location": {"display": "SOUTH SHORE HOSPITAL", "reference": "Location/76ebe279-211e-493a-8318-4bc784129ac5"}}], "identifier": [{"system": "http://example.org", "value": "Jama227Corwin84620190706T1847440700"}], "type": [{"text": "Examplotomy Encounter", "coding": [{"code": "1234", "display": "Examplotomy Encounter", "system": "http://example.org/fhir/encounters"}]}], "id": "02ba9ec6-0712-4715-8ba4-5485fc571403", "subject": {"display": "Ms. Jama227 Corwin846", "reference": "Patient/aad0894e-47f4-4ffc-8fab-8fe5487110d2"}}, "request": {"url": "Encounter/02ba9ec6-0712-4715-8ba4-5485fc571403", "method": "PUT"}, "fullUrl": "urn:uuid:02ba9ec6-0712-4715-8ba4-5485fc571403"}, {"resource": {"category": [{"coding": [{"code": "encounter-diagnosis", "display": "Encounter Diagnosis", "system": "http://terminology.hl7.org/CodeSystem/condition-category"}]}], "verificationStatus": {"coding": [{"code": "confirmed", "system": "http://terminology.hl7.org/CodeSystem/condition-ver-status"}]}, "code": {"text": "Examplitis", "coding": [{"code": "1234", "display": "Examplitis", "system": "http://example.org/fhir/conditions"}]}, "resourceType": "Condition", "onsetDateTime": "2019-07-06T18:47:44-07:00", "clinicalStatus": {"coding": [{"code": "active", "system": "http://terminology.hl7.org/CodeSystem/condition-clinical"}]}, "meta": {"profile": ["http://hl7.org/fhir/us/core/StructureDefinition/us-core-condition"]}, "recordedDate": "2019-07-06T18:47:44-07:00", "id": "5e83a7b0-6ce9-48c0-aede-81ef3a12b69e", "encounter": {"reference": "urn:uuid:02ba9ec6-0712-4715-8ba4-5485fc571403"}, "subject": {"reference": "Patient/aad0894e-47f4-4ffc-8fab-8fe5487110d2"}}, "request": {"url": "Condition/5e83a7b0-6ce9-48c0-aede-81ef3a12b69e", "method": "PUT"}, "fullUrl": "urn:uuid:5e83a7b0-6ce9-48c0-aede-81ef3a12b69e"}], "type": "transaction"}