<?xml version="1.0" encoding="UTF-8"?>
<Bundle xmlns="http://hl7.org/fhir">
	<id value="message-admit-01"/>
	<type value="message"/>
	<timestamp value="2019-08-21T08:08:47Z"/>
	<entry>
		<fullUrl value="urn:uuid:267b18ce-3d37-4581-9baa-6fada338038b"/>
		<resource>
			<MessageHeader>
				<id value="267b18ce-3d37-4581-9baa-6fada338038b"/>
				<!--  TODO make profile
				<meta>
					<profile value="http://hl7.org/fhir/us/davinci-alerts/MessageDefinition/notification"/>
				</meta>
			   -->
				<eventCoding>
					<system value="http://hl7.org/fhir/us/davinci-alerts/CodeSystem/notification-event"/>
					<code value="notification-admit"/>
				</eventCoding>
				<destination>
					<name value="Acme Message Gateway"/>
					<!--   this is to indicate to the Acme Message Gateway that this particular message
       is intended for Practitioner "xcda"   -->
					<target>
						<display value="Device/example"/>
					</target>
					<endpoint value="llp:10.11.12.14:5432"/>
					<receiver>
						<!--  this is an absolute reference to the receiver  (causes an error in the ig-publisher)
						<reference value="http://acme.com/ehr/fhir/PractitionerRole/example"/>
					-->
					<display value = "Acme Message Gateway"/>
					</receiver>
				</destination>
				<sender>
					<reference value="urn:uuid:7221aa91-d9e1-44fa-8b90-c5a8c7caeade"/>
				</sender>
				<!--     <timestamp value="2012-01-04T09:10:14Z"/>   -->
				<enterer>
					<!--
					<reference value="http://acme.com/ehr/fhir/Practitioner/example-1"/>
				-->
				<display value = "Dr Smith"/>
				</enterer>
				<author>
					<!--
					<reference value="http://acme.com/ehr/fhir/Practitioner/example-1"/>
				-->
				<display value = "Dr Smith"/>
				</author>
				<source>
					<name value="Acme Central Patient Registry"/>
					<software value="FooBar Patient Manager"/>
					<version value="3.1.45.AABB"/>
					<contact>
						<system value="phone"/>
						<value value="+1 (555) 123 4567"/>
					</contact>
					<endpoint value="llp:10.11.12.13:5432"/>
				</source>
				<!--   Here's the payload, the resource that this notification concerns   -->
				<focus>
					<reference value="urn:uuid:a33d1eed-c4ad-4def-8087-042b7ac0f2b7"/>
				</focus>
				<definition value="http://hl7.org/fhir/us/davinci-alerts/MessageDefinition/admit-1"/>
			</MessageHeader>
		</resource>
	</entry>
	<entry>
		<fullUrl value="urn:uuid:a33d1eed-c4ad-4def-8087-042b7ac0f2b7"/>
		<resource>
			<Encounter>
				<id value="a33d1eed-c4ad-4def-8087-042b7ac0f2b7"/>
				<meta>
					<profile value="http://hl7.org/fhir/us/core/StructureDefinition/us-core-encounter"/>
				</meta>
				<status value="finished"/>
				<class>
					<system value="http://terminology.hl7.org/CodeSystem/v3-ActCode"/>
					<code value="IMP"/>
					<display value="inpatient encounter"/>
				</class>
				<type>
					<coding>
						<system value="http://www.ama-assn.org/go/cpt"/>
						<code value="99234"/>
					</coding>
					<text value="Inpatient hospital care"/>
				</type>
				<subject>
					<reference value="urn:uuid:e442c924-df77-47fa-838f-24a8253bbdd4"/>
				</subject>
				<period>
					<start value="2015-11-01T17:00:14-05:00"/>
					<end value="2015-11-01T18:00:14-05:00"/>
				</period>
				<diagnosis>
					<condition>
						<reference value="urn:uuid:54f0ea3f-dc89-4e71-8d98-8774a5add41e"></reference>
					</condition>
				</diagnosis>
				<location>
					<location>
						<reference value="Location/hl7east"/>
					</location>
				</location>
			</Encounter>
		</resource>
	</entry>
	<entry>
		<fullUrl value="urn:uuid:e442c924-df77-47fa-838f-24a8253bbdd4"/>
		<resource>
			<Patient>
				<id value="e442c924-df77-47fa-838f-24a8253bbdd4"/>
				<meta>
					<profile value="http://hl7.org/fhir/us/core/StructureDefinition/us-core-patient"/>
				</meta>
				<text>
					<status value="generated"/>
					<div xmlns="http://www.w3.org/1999/xhtml">
						<p>
							<b>Generated Narrative with Details</b>
						</p>
						<p>
							<b>id</b>: example</p>
						<p>
							<b>identifier</b>: Medical Record Number = 1032702 (USUAL)</p>
						<p>
							<b>active</b>: true</p>
						<p>
							<b>name</b>: Amy V. Shaw </p>
						<p>
							<b>telecom</b>: ph: 555-555-5555(HOME), amy.shaw@example.com</p>
						<p>
							<b>gender</b>: </p>
						<p>
							<b>birthsex</b>: Female</p>
						<p>
							<b>birthDate</b>: Feb 20, 2007</p>
						<p>
							<b>address</b>: 49 Meadow St Mounds OK 74047 US </p>
						<p>
							<b>race</b>: White, American Indian or Alaska Native, Asian, Shoshone, Filipino</p>
						<p>
							<b>ethnicity</b>: Hispanic or Latino, Dominican, Mexican</p>
					</div>
				</text>
				<extension url="http://hl7.org/fhir/us/core/StructureDefinition/us-core-race">
					<extension url="ombCategory">
						<valueCoding>
							<system value="urn:oid:2.16.840.1.113883.6.238"/>
							<code value="2106-3"/>
							<display value="White"/>
						</valueCoding>
					</extension>
					<extension url="ombCategory">
						<valueCoding>
							<system value="urn:oid:2.16.840.1.113883.6.238"/>
							<code value="1002-5"/>
							<display value="American Indian or Alaska Native"/>
						</valueCoding>
					</extension>
					<extension url="ombCategory">
						<valueCoding>
							<system value="urn:oid:2.16.840.1.113883.6.238"/>
							<code value="2028-9"/>
							<display value="Asian"/>
						</valueCoding>
					</extension>
					<extension url="detailed">
						<valueCoding>
							<system value="urn:oid:2.16.840.1.113883.6.238"/>
							<code value="1586-7"/>
							<display value="Shoshone"/>
						</valueCoding>
					</extension>
					<extension url="detailed">
						<valueCoding>
							<system value="urn:oid:2.16.840.1.113883.6.238"/>
							<code value="2036-2"/>
							<display value="Filipino"/>
						</valueCoding>
					</extension>
					<extension url="text">
						<valueString value="Mixed"/>
					</extension>
				</extension>
				<extension url="http://hl7.org/fhir/us/core/StructureDefinition/us-core-ethnicity">
					<extension url="ombCategory">
						<valueCoding>
							<system value="urn:oid:2.16.840.1.113883.6.238"/>
							<code value="2135-2"/>
							<display value="Hispanic or Latino"/>
						</valueCoding>
					</extension>
					<extension url="detailed">
						<valueCoding>
							<system value="urn:oid:2.16.840.1.113883.6.238"/>
							<code value="2184-0"/>
							<display value="Dominican"/>
						</valueCoding>
					</extension>
					<extension url="detailed">
						<valueCoding>
							<system value="urn:oid:2.16.840.1.113883.6.238"/>
							<code value="2148-5"/>
							<display value="Mexican"/>
						</valueCoding>
					</extension>
					<extension url="text">
						<valueString value="Hispanic or Latino"/>
					</extension>
				</extension>
				<extension url="http://hl7.org/fhir/us/core/StructureDefinition/us-core-birthsex">
					<valueCode value="F"/>
				</extension>
				<identifier>
					<use value="usual"/>
					<type>
						<coding>
							<system value="http://terminology.hl7.org/CodeSystem/v2-0203"/>
							<code value="MR"/>
							<display value="Medical Record Number"/>
						</coding>
						<text value="Medical Record Number"/>
					</type>
					<system value="http://hospital.smarthealthit.org"/>
					<value value="1032702"/>
				</identifier>
				<active value="true"/>
				<name>
					<family value="Shaw"/>
					<given value="Amy"/>
					<given value="V."/>
				</name>
				<telecom>
					<system value="phone"/>
					<value value="555-555-5555"/>
					<use value="home"/>
				</telecom>
				<telecom>
					<system value="email"/>
					<value value="amy.shaw@example.com"/>
				</telecom>
				<gender value="female"/>
				<birthDate value="2007-02-20"/>
				<address>
					<line value="49 Meadow St"/>
					<city value="Mounds"/>
					<state value="OK"/>
					<postalCode value="74047"/>
					<country value="US"/>
				</address>
			</Patient>
		</resource>
	</entry>
	<entry>
		<fullUrl value="urn:uuid:54f0ea3f-dc89-4e71-8d98-8774a5add41e"/>
		<resource>
			<Condition>
				<id value="54f0ea3f-dc89-4e71-8d98-8774a5add41e"/>
				<meta>
					<profile value="http://hl7.org/fhir/us/core/StructureDefinition/us-core-condition"/>
				</meta>
				<clinicalStatus>
					<coding>
						<system value="http://terminology.hl7.org/CodeSystem/condition-clinical"/>
						<code value="active"/>
						<display value="Active"/>
					</coding>
					<text value="Active"/>
				</clinicalStatus>
				<verificationStatus>
					<coding>
						<system value="http://terminology.hl7.org/CodeSystem/condition-ver-status"/>
						<code value="confirmed"/>
						<display value="Confirmed"/>
					</coding>
					<text value="Confirmed"/>
				</verificationStatus>
				<category>
					<coding>
						<system value="http://terminology.hl7.org/CodeSystem/condition-category"/>
						<code value="problem-list-item"/>
						<display value="Problem List Item"/>
					</coding>
					<text value="Problem"/>
				</category>
				<code>
					<coding>
						<system value="http://snomed.info/sct"/>
						<code value="442311008"/>
						<display value="Liveborn born in hospital"/>
					</coding>
					<text value="Single liveborn, born in hospital"/>
				</code>
				<subject>
					<reference value="urn:uuid:e442c924-df77-47fa-838f-24a8253bbdd4"/>
					<display value="Amy V. Shaw"/>
				</subject>
				<onsetDateTime value="2016-08-10"/>
			</Condition>
		</resource>
	</entry>
	<entry>
		<fullUrl value="urn:uuid:c470de5b-345c-4945-bc4a-cbdec7d86f54"/>
		<resource>
			<Coverage>
				<id value="c470de5b-345c-4945-bc4a-cbdec7d86f54"/>
				<meta>
					<profile value="http://hl7.org/fhir/us/davinci-hrex/StructureDefinition/hrex-coverage"/>
				</meta>
				<identifier>
					<system value="https://www.anthem.com/ca"/>
					<value value="DZW9200000000"/>
				</identifier>
				<status value="active"/>
				<type>
					<coding>
						<system value="http://terminology.hl7.org/CodeSystem/v3-ActCode"/>
						<code value="HIP"/>
						<display value="health insurance plan policy"/>
					</coding>
				</type>
				<subscriber>
					<reference value="urn:uuid:e442c924-df77-47fa-838f-24a8253bbdd4"/>
					<display value="First M LastName Jr"/>
				</subscriber>
				<subscriberId value="DZW9200000000"/>
				<beneficiary>
					<reference value="urn:uuid:e442c924-df77-47fa-838f-24a8253bbdd4"/>
				</beneficiary>
				<relationship>
					<coding>
						<system value="http://terminology.hl7.org/CodeSystem/subscriber-relationship"/>
						<code value="self"/>
						<display value="Self"/>
					</coding>
				</relationship>
				<period>
					<start value="2016-01-01"/>
				</period>
				<payor>
					<display value="Anthem Blue Cross of California"/>
				</payor>
				<class>
					<type>
						<coding>
							<system value="http://terminology.hl7.org/CodeSystem/coverage-class"/>
							<code value="plan"/>
						</coding>
					</type>
					<value value="1FZQ"/>
					<name value="Anthem Bronze 60 D HSA PPO"/>
				</class>
			</Coverage>
		</resource>
	</entry>
	<entry>
		<fullUrl value="urn:uuid:7221aa91-d9e1-44fa-8b90-c5a8c7caeade"/>
		<resource>
			<Organization>
				<id value="7221aa91-d9e1-44fa-8b90-c5a8c7caeade"/>
				<meta>
					<profile value="http://hl7.org/fhir/us/core/StructureDefinition/us-core-organization"/>
				</meta>
				<identifier>
					<system value="http://hl7.org.fhir/sid/us-npi"/>
					<value value="1407071236"/>
				</identifier>
				<identifier>
					<system value="http://example.org/fhir/sid/us-tin"/>
					<!-- The SSN or TIN is represented in resources with dashes removed -->
					<value value="121111111"/>
				</identifier>
				<active value="true"/>
				<type>
					<coding>
						<system value="http://terminology.hl7.org/CodeSystem/organization-type"/>
						<code value="prov"/>
						<display value="Healthcare Provider"/>
					</coding>
				</type>
				<name value="Acme Clinic"/>
				<telecom>
					<system value="phone"/>
					<value value="(+1) 734-677-7777"/>
				</telecom>
				<telecom>
					<system value="email"/>
					<value value="customer-service@acme-clinic.org"/>
				</telecom>
				<address>
					<line value="3300 Washtenaw Avenue, Suite 227"/>
					<city value="Amherst"/>
					<state value="MA"/>
					<postalCode value="01002"/>
					<country value="USA"/>
				</address>
				<endpoint>
					<reference value="urn:uuid:9ac634f6-b6c2-42ff-b3f6-8b650ec345f4"/>
					<display value="Acme Hospital EHR FHIR R4 Server"/>
				</endpoint>
			</Organization>
		</resource>
	</entry>
	<entry>
		<fullUrl value="urn:uuid:9ac634f6-b6c2-42ff-b3f6-8b650ec345f4"/>
		<resource>
			<Endpoint>
				<id value="9ac634f6-b6c2-42ff-b3f6-8b650ec345f4"/>
				<meta>
					<profile value="http://hl7.org/fhir/us/davinci-alerts/StructureDefinition/notifications-endpoint"/>
				</meta>
				<status value="active"/>
				<connectionType>
					<system value="http://terminology.hl7.org/CodeSystem/endpoint-connection-type"/>
					<code value="hl7-fhir-rest"/>
				</connectionType>
				<name value="Acme Hospital EHR FHIR R4 Server"/>
				<payloadType>
					<text value="n/a"/>
				</payloadType>
				<!-- the base url for the fhir server -->
				<address value="https://fhir-ehr.acme/r4/1234/"/>
				<header value="Authorization: Bearer eyJraWQiOiIyMDE5LTA3LTE3VDIzOjA1OjQ4LjY3NC5lYyIsInR5cCI6IkpXVCIsImFsZyI6IkVTMjU2In0..weCcKK-zziKrsXlUKHunHTkbUJOZTV0AEzteZeaYdGjhF9581LlBCCp4EnaaUIQbkaWkQ-btukZ_GLw7-cy2Ag"/>
			</Endpoint>
		</resource>
	</entry>
</Bundle>
